3                    NumBlade:    Number of blades.
61.5                 BladeLength:     
1.5                  HubRad:     Hub radius 
0.0                  PreCone:    Precone angle, positive downwind [deg].
0.0                  Tilt: (Shouldbe 2)      Shaft tilt [deg].
0.0                  Yaw:        Yaw error [deg]. (useless)
90.0                 HubHt:      Hub height 
30                   NumSeg:     Number of blade segments
10                   RotSpeed
5000                 Prated kW
# SPECS
    4.0000    4.8504   -0.4000
    4.1000    4.9717   -0.4000
    4.2000    5.0930   -0.4000
    4.3000    5.2142   -0.4000
    4.4000    5.3355   -0.4000
    4.5000    5.4567   -0.4000
    4.6000    5.5780   -0.4000
    4.7000    5.6993   -0.4000
    4.8000    5.8205   -0.4000
    4.9000    5.9418   -0.4000
    5.0000    6.0630   -0.4000
    5.1000    6.1843   -0.4000
    5.2000    6.3056   -0.4000
    5.3000    6.4268   -0.4000
    5.4000    6.5481   -0.4000
    5.5000    6.6693   -0.4000
    5.6000    6.7906   -0.4000
    5.7000    6.9119   -0.4000
    5.8000    7.0331   -0.4000
    5.9000    7.1544   -0.4000
    6.0000    7.2757   -0.4000
    6.1000    7.3969   -0.4000
    6.2000    7.5182   -0.4000
    6.3000    7.6394   -0.4000
    6.4000    7.7607   -0.4000
    6.5000    7.8820   -0.4000
    6.6000    8.0032   -0.4000
    6.7000    8.1245   -0.4000
    6.8000    8.2457   -0.4000
    6.9000    8.3670   -0.4000
    7.0000    8.4883   -0.4000
    7.1000    8.6095   -0.4000
    7.2000    8.7308   -0.4000
    7.3000    8.8520   -0.4000
    7.4000    8.9733   -0.4000
    7.5000    9.0946   -0.4000
    7.6000    9.2158   -0.4000
    7.7000    9.3371   -0.4000
    7.8000    9.4584   -0.4000
    7.9000    9.5796   -0.4000
    8.0000    9.7009   -0.4000
    8.1000    9.8221   -0.4000
    8.2000    9.9434   -0.4000
    8.3000   10.0647   -0.4000
    8.4000   10.1859   -0.4000
    8.5000   10.3072   -0.4000
    8.6000   10.4284   -0.4000
    8.7000   10.5497   -0.4000
    8.8000   10.6710   -0.4000
    8.9000   10.7922   -0.4000
    9.0000   10.9135   -0.4000
    9.1000   10.9135   -0.4000
    9.2000   10.9135   -0.4000
    9.3000   10.9135   -0.4000
    9.4000   10.9135   -0.4000
    9.5000   10.9135   -0.4000
    9.6000   10.9135   -0.4000
    9.7000   10.9135   -0.4000
    9.8000   10.9135   -0.4000
    9.9000   10.9135   -0.4000
   10.0000   10.9135   -0.4000
   10.1000   10.9135   -0.4000
   10.2000   10.9135   -0.4000
   10.3000   10.9135   -0.4000
   10.4000   10.9135   -0.4000
   10.5000   10.9135   -0.4000
   10.6000   10.9135   -0.4000
   10.7000   10.9135   -0.4000
   10.8000   10.9135   -0.4000
   10.9000   10.9135   -0.4000
   11.0000   10.9135   -0.4000
   11.1000   10.9135   -0.4000
   11.2000   10.9135   -0.4000
   11.3000   10.9135    0.7541
   11.4000   10.9135    1.6877
   11.5000   10.9135    2.2531
   11.6000   10.9135    2.7443
   11.7000   10.9135    3.1873
   11.8000   10.9135    3.5937
   11.9000   10.9135    3.9718
   12.0000   10.9135    4.3277
   12.1000   10.9135    4.6634
   12.2000   10.9135    4.9817
   12.3000   10.9135    5.2877
   12.4000   10.9135    5.5826
   12.5000   10.9135    5.8672
   12.6000   10.9135    6.1431
   12.7000   10.9135    6.4111
   12.8000   10.9135    6.6721
   12.9000   10.9135    6.9267
   13.0000   10.9135    7.1757
   13.1000   10.9135    7.4193
   13.2000   10.9135    7.6582
   13.3000   10.9135    7.8924
   13.4000   10.9135    8.1223
   13.5000   10.9135    8.3483
   13.6000   10.9135    8.5703
   13.7000   10.9135    8.7885
   13.8000   10.9135    9.0035
   13.9000   10.9135    9.2152
   14.0000   10.9135    9.4239
   14.1000   10.9135    9.6295
   14.2000   10.9135    9.8325
   14.3000   10.9135   10.0329
   14.4000   10.9135   10.2308
   14.5000   10.9135   10.4264
   14.6000   10.9135   10.6198
   14.7000   10.9135   10.8110
   14.8000   10.9135   11.0002
   14.9000   10.9135   11.1875
   15.0000   10.9135   11.3730
   15.1000   10.9135   11.5566
   15.2000   10.9135   11.7385
   15.3000   10.9135   11.9187
   15.4000   10.9135   12.0972
   15.5000   10.9135   12.2742
   15.6000   10.9135   12.4496
   15.7000   10.9135   12.6237
   15.8000   10.9135   12.7963
   15.9000   10.9135   12.9676
   16.0000   10.9135   13.1374
   16.1000   10.9135   13.3060
   16.2000   10.9135   13.4733
   16.3000   10.9135   13.6394
   16.4000   10.9135   13.8042
   16.5000   10.9135   13.9678
   16.6000   10.9135   14.1304
   16.7000   10.9135   14.2917
   16.8000   10.9135   14.4520
   16.9000   10.9135   14.6112
   17.0000   10.9135   14.7695
   17.1000   10.9135   14.9266
   17.2000   10.9135   15.0828
   17.3000   10.9135   15.2381
   17.4000   10.9135   15.3925
   17.5000   10.9135   15.5456
   17.6000   10.9135   15.6978
   17.7000   10.9135   15.8492
   17.8000   10.9135   15.9997
   17.9000   10.9135   16.1494
   18.0000   10.9135   16.2980
   18.1000   10.9135   16.4454
   18.2000   10.9135   16.5921
   18.3000   10.9135   16.7380
   18.4000   10.9135   16.8831
   18.5000   10.9135   17.0270
   18.6000   10.9135   17.1702
   18.7000   10.9135   17.3127
   18.8000   10.9135   17.4546
   18.9000   10.9135   17.5958
   19.0000   10.9135   17.7361
   19.1000   10.9135   17.8756
   19.2000   10.9135   18.0146
   19.3000   10.9135   18.1533
   19.4000   10.9135   18.2915
   19.5000   10.9135   18.4290
   19.6000   10.9135   18.5660
   19.7000   10.9135   18.7023
   19.8000   10.9135   18.8382
   19.9000   10.9135   18.9734
   20.0000   10.9135   19.1083
   20.1000   10.9135   19.2429
   20.2000   10.9135   19.3770
   20.3000   10.9135   19.5105
   20.4000   10.9135   19.6435
   20.5000   10.9135   19.7760
   20.6000   10.9135   19.9080
   20.7000   10.9135   20.0404
   20.8000   10.9135   20.1720
   20.9000   10.9135   20.3032
   21.0000   10.9135   20.4338
   21.1000   10.9135   20.5640
   21.2000   10.9135   20.6937
   21.3000   10.9135   20.8224
   21.4000   10.9135   20.9505
   21.5000   10.9135   21.0784
   21.6000   10.9135   21.2061
   21.7000   10.9135   21.3332
   21.8000   10.9135   21.4600
   21.9000   10.9135   21.5862
   22.0000   10.9135   21.7121
   22.1000   10.9135   21.8373
   22.2000   10.9135   21.9623
   22.3000   10.9135   22.0859
   22.4000   10.9135   22.2090
   22.5000   10.9135   22.3318
   22.6000   10.9135   22.4541
   22.7000   10.9135   22.5760
   22.8000   10.9135   22.6975
   22.9000   10.9135   22.8186
   23.0000   10.9135   22.9395
   23.1000   10.9135   23.0602
   23.2000   10.9135   23.1799
   23.3000   10.9135   23.2991
   23.4000   10.9135   23.4179
   23.5000   10.9135   23.5363
   23.6000   10.9135   23.6544
   23.7000   10.9135   23.7723
   23.8000   10.9135   23.8900
   23.9000   10.9135   24.0074
   24.0000   10.9135   24.1244
   24.1000   10.9135   24.2410
   24.2000   10.9135   24.3573
   24.3000   10.9135   24.4732
   24.4000   10.9135   24.5887
   24.5000   10.9135   24.7039
   24.6000   10.9135   24.8181
   24.7000   10.9135   24.9319
   24.8000   10.9135   25.0454
   24.9000   10.9135   25.1585
   25.0000   10.9135   25.2713
